Timestamp,Acc_X (g),Acc_Y (g),Acc_Z (g),Gyro_X (deg/s),Gyro_Y (deg/s),Gyro_Z (deg/s)
2025-07-03 21:46:33.239390,-0.00084,0.00374,-1.01002,0.00292,0.00462,0.00877
2025-07-03 21:46:33.335575,0.20536,0.01097,-1.01916,-0.01197,0.02509,0.0439
2025-07-03 21:46:33.447773,0.25853,0.05468,-1.01417,0.00885,-0.0094,-0.08142
2025-07-03 21:46:33.547023,0.03543,-0.01867,-1.01161,-0.0147,0.00359,0.02494
2025-07-03 21:46:33.654165,-0.09017,-0.02631,-1.01787,0.02804,0.01984,0.02123
2025-07-03 21:46:33.745277,0.12111,0.02129,-1.0266,0.01108,0.00654,0.00409
2025-07-03 21:46:33.847754,-0.05354,-0.01296,-1.03593,0.02918,-0.05337,0.0597
2025-07-03 21:46:33.944481,-0.0071,0.00814,-1.02353,0.00412,0.02441,0.03366
2025-07-03 21:46:34.047137,0.08695,-0.00694,-1.03403,-0.03601,0.01728,0.04032
2025-07-03 21:46:34.144401,-0.06153,0.02082,-0.99693,-0.02397,-0.01081,0.01091
2025-07-03 21:46:34.247670,0.0457,-0.00658,-1.00933,-0.04822,0.03082,0.02344
2025-07-03 21:46:34.344528,-0.1612,0.01105,-1.00141,-0.00163,-0.02864,0.00174
2025-07-03 21:46:34.447590,-0.05318,0.02704,-0.97237,0.01179,0.04743,-0.03059
2025-07-03 21:46:34.547779,0.04468,-0.01926,-0.98568,-0.00942,0.00924,0.0277
2025-07-03 21:46:34.645336,-0.17576,0.00852,-1.01689,-0.02292,0.02874,-0.01615
2025-07-03 21:46:34.742198,0.00194,-0.04066,-1.0153,0.01159,0.02702,0.05768
2025-07-03 21:46:34.846990,-0.21706,-0.01588,-0.98575,0.01856,-0.00985,0.02696
2025-07-03 21:46:34.948592,0.09902,0.00848,-1.00496,0.01229,0.00878,-0.03162
2025-07-03 21:46:35.040670,-0.01354,0.0372,-0.99954,-0.00169,-0.00472,-0.0239
2025-07-03 21:46:35.145958,-0.01379,0.009,-1.01056,0.00349,0.00041,0.02045
2025-07-03 21:46:35.247805,-0.01257,0.00796,-1.01049,0.00167,-0.00173,0.01049
2025-07-03 21:46:35.339405,-0.0123,0.00476,-1.0093,0.00123,0.00157,0.01271
2025-07-03 21:46:35.448212,-0.01338,0.00569,-1.00743,0.00227,0.00437,0.00846
2025-07-03 21:46:35.545203,-0.00327,0.0046,-1.0085,0.00497,0.00491,0.00832
2025-07-03 21:46:35.647830,-0.00083,0.00418,-1.00991,0.00418,0.00426,0.00818
2025-07-03 21:46:35.747081,0.00084,0.00546,-1.00999,0.00313,0.00721,0.01129
2025-07-03 21:46:35.847757,0.0078,0.00477,-1.0103,0.00325,0.00366,0.00969
2025-07-03 21:46:35.945127,0.01022,0.00434,-1.00903,0.00305,0.00351,0.00909
2025-07-03 21:46:36.048556,0.00511,0.00479,-1.01029,0.00081,0.00427,0.0099
2025-07-03 21:46:36.141535,0.08765,0.15167,-1.00437,1e-05,-0.01541,1.12671
2025-07-03 21:46:36.248068,0.01598,-0.03063,-1.00863,-0.01498,0.02504,1.19282
2025-07-03 21:46:36.344082,0.00498,-0.02294,-1.00333,-0.00827,-0.01914,1.2913
2025-07-03 21:46:36.445479,0.02488,0.01348,-1.00067,-0.00779,-0.01044,1.3106
2025-07-03 21:46:36.545001,0.03253,-0.01005,-0.99785,-0.01196,-0.01862,1.38538
2025-07-03 21:46:36.647221,0.01669,-0.03367,-0.98047,0.03103,-0.00013,1.37886
2025-07-03 21:46:36.746068,0.01166,-0.01907,-1.00371,-0.00481,-0.00897,1.40746
2025-07-03 21:46:36.847093,0.00759,-0.05148,-1.0193,0.00082,0.03915,1.46442
2025-07-03 21:46:36.944208,0.01314,-0.04301,-1.02742,-0.03702,0.00911,1.44994
2025-07-03 21:46:37.047043,0.0054,-0.01608,-1.04788,-0.03045,-0.01561,1.42956
2025-07-03 21:46:37.144025,0.01935,0.0216,-1.02273,-0.02677,-0.01172,1.37812
2025-07-03 21:46:37.247042,0.07488,0.16576,-1.02217,-0.00261,-0.02017,0.5366
2025-07-03 21:46:37.347503,0.0231,0.06914,-1.0062,-0.00665,-0.00228,0.1185
2025-07-03 21:46:37.445749,-0.00811,-0.01624,-1.01161,0.00191,-0.00127,0.00702
2025-07-03 21:46:37.543236,-0.0035,-0.0004,-1.01046,0.00183,0.00395,0.01038
2025-07-03 21:46:37.647934,0.00265,0.00777,-1.009,0.00341,-0.0002,0.00861
2025-07-03 21:46:37.748033,0.0016,0.00473,-1.00969,0.00132,0.0029,0.0093
2025-07-03 21:46:37.841184,-0.00178,0.00579,-1.00956,0.00229,0.00469,0.0083
2025-07-03 21:46:37.947721,-0.00174,0.00565,-1.00815,0.00359,0.0033,0.00988
2025-07-03 21:46:38.068356,0.0002,0.00584,-1.00889,0.00255,0.00349,0.0107
2025-07-03 21:46:38.168317,-0.00041,0.00679,-1.00939,0.00357,0.00463,0.00752
2025-07-03 21:46:38.268630,-0.00132,0.00549,-1.00948,0.00239,0.00201,0.0104
2025-07-03 21:46:38.366722,0.02829,-0.00122,-0.99437,0.00969,0.0439,-0.00206
2025-07-03 21:46:38.467685,0.2844,0.01344,-0.99575,0.0178,0.02403,0.08368
2025-07-03 21:46:38.568031,0.12552,0.00458,-1.0403,0.02676,-0.04912,-0.09032
2025-07-03 21:46:38.658189,-0.08814,0.03337,-0.99766,0.00388,0.00309,-0.0313
2025-07-03 21:46:38.769051,0.04334,-0.00951,-1.00289,-0.03627,0.00599,0.0219
2025-07-03 21:46:38.865618,0.08876,0.01237,-1.0017,0.01673,-0.00037,-0.00352
2025-07-03 21:46:38.961054,-0.0728,0.01076,-0.99936,0.00311,0.0206,0.00333
2025-07-03 21:46:39.065554,0.09566,0.03127,-1.04278,0.00639,0.05013,-0.03167
2025-07-03 21:46:39.166509,0.01384,0.01163,-1.04017,-0.03024,-0.03499,0.01131
2025-07-03 21:46:39.263844,-0.0488,0.00947,-1.00217,0.02134,0.0581,-0.04467
2025-07-03 21:46:39.362318,-0.04736,0.02917,-0.94141,0.0373,0.01665,-0.00942
2025-07-03 21:46:39.460924,-0.14116,-0.01813,-1.02056,-0.01909,-0.01611,0.05386
2025-07-03 21:46:39.566769,0.00761,-0.00988,-1.0255,-0.01068,0.01698,0.03939
2025-07-03 21:46:39.667714,-0.10741,0.03595,-0.97525,0.04045,0.00141,-0.0293
2025-07-03 21:46:39.764723,-0.13303,0.01974,-1.00856,0.01364,-0.00582,-0.00203
2025-07-03 21:46:39.866253,-0.03837,0.01617,-1.016,-0.00815,0.01745,-0.00132
2025-07-03 21:46:39.968723,0.00604,0.00324,-1.0179,-0.00794,0.0194,0.07939
2025-07-03 21:46:40.064739,0.03106,-0.00595,-1.00631,-0.00383,-0.00933,-0.0405
2025-07-03 21:46:40.165002,-0.01902,-0.00099,-0.99844,0.0121,0.00726,-0.00153
2025-07-03 21:46:40.268789,-0.00768,0.00659,-1.00553,0.00076,0.01101,0.02226
2025-07-03 21:46:40.368391,-0.00522,0.0092,-1.00976,0.00315,-0.00166,0.01274
2025-07-03 21:46:40.468136,-0.01194,0.00709,-1.00727,0.00105,0.00221,0.00887
2025-07-03 21:46:40.568316,-0.03124,0.01066,-1.0082,0.00593,-0.00081,-0.0035
2025-07-03 21:46:40.665154,-0.01664,0.00733,-1.00978,0.00532,0.00277,0.00735
2025-07-03 21:46:40.767900,-0.01574,0.00261,-1.00837,0.00543,0.0044,0.00866
2025-07-03 21:46:40.864792,-0.00916,0.00259,-1.01025,0.00401,0.00426,0.0121
2025-07-03 21:46:40.968011,-0.00652,0.0025,-1.00847,-6e-05,0.00399,0.01238
2025-07-03 21:46:41.068059,-0.00776,0.0035,-1.00934,0.00084,0.00757,0.00696
2025-07-03 21:46:41.167848,-0.14527,-0.42914,-0.99169,0.02035,0.03764,1.43753
2025-07-03 21:46:41.268371,0.02459,-0.00573,-0.99433,0.0225,-0.0066,1.06115
2025-07-03 21:46:41.368983,0.01364,0.05256,-1.00893,-0.00742,-0.00648,1.21985
2025-07-03 21:46:41.470090,0.01116,0.03816,-0.98686,-0.0343,-0.03019,1.30538
2025-07-03 21:46:41.562805,-0.01202,-0.01042,-0.97725,0.03778,0.02977,1.36101
2025-07-03 21:46:41.668342,0.03273,0.00192,-1.01497,0.015,-0.01415,1.31585
2025-07-03 21:46:41.767573,0.01363,-0.04645,-0.99971,-0.0234,-0.03102,1.46023
2025-07-03 21:46:41.867403,0.02041,-0.0177,-1.01322,-0.0272,-0.03226,1.38901
2025-07-03 21:46:41.964490,0.02986,0.01095,-1.01855,-0.03925,0.01074,1.41073
2025-07-03 21:46:42.067365,0.01281,-0.00024,-1.01938,-0.0289,0.00951,1.44029
2025-07-03 21:46:42.166436,0.03068,-0.00803,-1.00673,-0.02684,-0.04548,1.38761
2025-07-03 21:46:42.267420,0.04125,0.01851,-1.00259,-0.02702,-0.00439,1.26638
2025-07-03 21:46:42.364810,0.01491,0.03929,-1.01219,-0.00319,-0.00859,0.34444
2025-07-03 21:46:42.468040,-0.00733,0.01752,-1.00844,0.00986,0.00437,-0.00114
2025-07-03 21:46:42.568804,-0.00991,0.00122,-1.00941,0.00317,0.00244,0.01496
2025-07-03 21:46:42.668721,-0.0034,0.01555,-1.00783,0.00263,0.00495,0.00673
2025-07-03 21:46:42.769085,0.00039,0.00923,-1.00827,0.0027,0.00209,0.00846
2025-07-03 21:46:42.863609,0.00018,0.01047,-1.00923,0.00304,0.00303,0.00767
2025-07-03 21:46:42.968689,-0.00401,0.01062,-1.00916,0.0013,0.00298,0.00783
2025-07-03 21:46:43.059004,-0.0026,0.01051,-1.01034,0.00282,0.00292,0.01164
2025-07-03 21:46:43.168971,-0.00031,0.01134,-1.00927,0.0024,0.00547,0.00835
2025-07-03 21:46:43.268454,-0.00119,0.01139,-1.01038,0.00341,0.00088,0.00891
2025-07-03 21:46:43.366575,-0.00277,0.01158,-1.00984,0.00454,0.0033,0.01186
2025-07-03 21:46:43.459103,0.17877,-0.07704,-1.01284,-0.00033,0.01969,0.13132
2025-07-03 21:46:43.562577,0.25431,0.1046,-1.00651,-0.00506,-0.04593,-0.10529
2025-07-03 21:46:43.668166,0.01527,-0.06309,-0.99597,0.02227,-0.0041,-0.0413
2025-07-03 21:46:43.768102,-0.0972,0.02178,-1.00476,-0.02247,-0.00289,0.00527
2025-07-03 21:46:43.868438,0.13611,-0.0092,-1.03039,-0.00061,-0.01307,0.03443
2025-07-03 21:46:43.968108,-0.04319,0.03178,-0.96381,0.01089,0.03755,-0.01791
2025-07-03 21:46:44.063180,0.00398,0.01737,-0.99243,0.00776,0.059,0.06535
2025-07-03 21:46:44.167886,0.07667,0.01887,-1.01328,-0.04273,-0.02341,0.04367
2025-07-03 21:46:44.263077,-0.05045,0.04934,-0.97415,0.01521,0.08505,-0.0365
2025-07-03 21:46:44.366089,0.08842,0.02877,-0.96206,0.02173,0.04269,0.01738
2025-07-03 21:46:44.468722,-0.14539,0.07313,-1.01786,0.00444,-0.05482,-0.06366
2025-07-03 21:46:44.566201,-0.0832,0.01646,-0.97354,0.01359,0.06435,0.0297
2025-07-03 21:46:44.668102,0.11514,-0.0019,-1.01858,-0.04123,-0.02198,0.01158
2025-07-03 21:46:44.768038,-0.23502,-0.04058,-1.03283,-0.03658,0.00373,0.01838
2025-07-03 21:46:44.866020,0.01389,0.02975,-1.01049,-0.00344,0.01924,0.00051
2025-07-03 21:46:44.963603,-0.02316,0.00532,-1.01836,-0.02282,-0.02177,0.04572
2025-07-03 21:46:45.068057,-0.11329,0.01137,-1.01653,0.01554,0.01325,-0.23484
2025-07-03 21:46:45.168622,0.11811,0.11373,-1.00511,-0.00525,0.00779,0.09569
2025-07-03 21:46:45.269102,-0.07856,-0.05843,-1.00762,0.01372,-0.00436,0.02338
2025-07-03 21:46:45.388707,-0.00541,0.03386,-1.00894,0.00604,0.01692,-0.01388
2025-07-03 21:46:45.482646,-0.0113,0.01325,-1.00901,0.00301,0.00487,0.00381
2025-07-03 21:46:45.588710,0.00168,0.01067,-1.00764,0.00347,0.00524,0.0129
2025-07-03 21:46:45.681251,0.01197,0.01277,-1.00842,0.00171,0.00558,0.00788
2025-07-03 21:46:45.786607,0.00901,0.01249,-1.00955,0.00401,0.00636,0.01295
2025-07-03 21:46:45.888328,0.00049,0.01248,-1.00866,0.0047,0.00235,0.00903
2025-07-03 21:46:45.985994,-0.00251,0.0121,-1.00904,0.00395,0.00501,0.00722
2025-07-03 21:46:46.088887,0.00293,0.01177,-1.00815,0.00199,0.00377,0.01113
2025-07-03 21:46:46.185910,0.00493,0.01249,-1.00852,0.00247,0.00258,0.0109
2025-07-03 21:46:46.288510,0.00095,0.01179,-1.00809,0.0054,0.0054,0.00571
2025-07-03 21:46:46.385472,-0.0018,0.00919,-1.01229,0.00017,0.0026,0.01361
2025-07-03 21:46:46.486484,0.05177,0.08758,-1.0059,0.01243,-0.01966,1.09452
2025-07-03 21:46:46.588662,0.00135,-0.01768,-1.01276,-0.01257,-0.01515,1.24747
2025-07-03 21:46:46.688731,0.01926,0.02942,-1.035,-0.01323,-0.0018,1.25292
2025-07-03 21:46:46.788559,0.01701,0.01846,-1.01179,0.01983,0.00331,1.3292
2025-07-03 21:46:46.889500,0.01638,-0.00973,-1.02369,-0.02645,-0.0266,1.33889
2025-07-03 21:46:46.988122,0.02327,0.02094,-1.01265,-0.00225,-0.04465,1.32542
2025-07-03 21:46:47.084713,0.02718,0.01399,-1.00094,-0.01039,-0.00858,1.37047
2025-07-03 21:46:47.187540,0.03544,0.00213,-0.97641,-0.01741,0.01735,1.35533
2025-07-03 21:46:47.284592,0.03299,-0.01043,-0.98949,-0.01731,-0.01751,1.38418
2025-07-03 21:46:47.387981,0.01819,-0.02789,-1.00394,-0.00347,0.00655,1.42669
2025-07-03 21:46:47.484809,0.02306,-0.00203,-0.99559,0.01182,0.01707,1.38983
2025-07-03 21:46:47.588031,0.0206,0.03619,-0.99267,0.00825,0.0089,0.54913
2025-07-03 21:46:47.681131,0.03389,0.07305,-1.01217,-0.00095,0.00207,0.04485
2025-07-03 21:46:47.788026,0.00803,-0.00519,-1.00918,0.00633,0.00623,0.02119
2025-07-03 21:46:47.881729,0.01212,0.00706,-1.00953,0.00436,0.00249,0.00639
2025-07-03 21:46:47.981509,0.00667,0.00608,-1.00666,0.00475,0.00196,0.00527
2025-07-03 21:46:48.079413,0.00466,0.00388,-1.00925,0.00202,0.00573,0.00998
2025-07-03 21:46:48.182648,0.00698,0.00534,-1.0078,0.00134,0.00461,0.00925
2025-07-03 21:46:48.284524,0.00892,0.00602,-1.0079,0.00256,0.00445,0.00989
2025-07-03 21:46:48.388594,0.00687,0.00541,-1.00822,0.00346,0.00423,0.0085
2025-07-03 21:46:48.488592,0.00783,0.00599,-1.00872,0.00247,0.00125,0.00951
2025-07-03 21:46:48.586835,0.00804,0.00651,-1.00821,0.0007,0.00439,0.00837
2025-07-03 21:46:48.688215,-0.03409,0.01882,-0.99984,0.0046,0.0135,-0.02222
2025-07-03 21:46:48.788167,0.27923,0.01851,-1.00055,0.01176,0.04481,0.05419
2025-07-03 21:46:48.889199,0.15783,-0.02466,-1.01289,0.01999,0.0003,-0.03045
2025-07-03 21:46:48.985012,-0.13073,-0.00735,-0.95953,0.01709,0.02373,0.03004
2025-07-03 21:46:49.104868,0.06637,-0.0095,-1.02071,0.00132,-0.00642,0.02384
2025-07-03 21:46:49.207888,0.11077,0.03929,-1.01347,0.01868,-0.03331,-0.01872
2025-07-03 21:46:49.304916,-0.1088,0.03927,-1.05772,0.02157,-0.00642,-0.02724
2025-07-03 21:46:49.408171,0.12162,-0.01427,-0.99074,-0.01669,0.02553,0.00128
2025-07-03 21:46:49.505118,0.02793,0.02307,-1.01629,-0.01629,0.00717,-0.00761
2025-07-03 21:46:49.608130,-0.05265,0.02018,-0.99718,0.02921,0.00674,-0.04274
2025-07-03 21:46:49.705171,0.11837,-0.02906,-1.00681,-0.00525,-0.00186,0.03468
2025-07-03 21:46:49.807909,-0.18488,0.01029,-0.94284,-0.02976,0.05477,0.00665
2025-07-03 21:46:49.908411,-0.08563,-0.01449,-1.03646,-0.00244,0.01452,0.08065
2025-07-03 21:46:50.005620,0.11409,-0.01593,-1.04906,0.00747,-0.00708,0.04776
2025-07-03 21:46:50.102413,-0.28124,0.03332,-1.01086,0.00097,-0.0084,-0.07859
2025-07-03 21:46:50.208686,0.07973,0.02943,-1.03034,0.00729,0.03939,0.01099
2025-07-03 21:46:50.306371,-0.08068,0.01002,-0.98379,0.00879,-0.02431,0.0095
2025-07-03 21:46:50.403675,-0.00965,-0.0808,-1.03066,0.00763,0.03918,-0.06483
2025-07-03 21:46:50.507690,0.06466,0.05107,-0.99244,0.02398,-0.01456,0.08974
2025-07-03 21:46:50.604614,-0.01018,-0.02998,-1.01413,-0.00425,-0.00094,0.01982
2025-07-03 21:46:50.708557,-0.01422,0.00626,-1.01355,0.00026,-0.0108,0.00978
2025-07-03 21:46:50.808647,-0.01459,0.0141,-1.01013,0.00839,0.00509,-0.06118
2025-07-03 21:46:50.908773,-0.01632,0.00272,-1.01086,-0.00108,0.00218,0.02176
2025-07-03 21:46:51.006568,-0.01115,0.00781,-1.00832,0.00555,0.00155,0.00675
2025-07-03 21:46:51.104812,-0.0059,0.00414,-1.00876,0.00181,0.0036,0.01047
2025-07-03 21:46:51.208285,-0.00217,0.00434,-1.0103,0.00395,0.00571,0.00961
2025-07-03 21:46:51.304268,0.00089,0.00572,-1.0072,0.00261,0.00447,0.00717
2025-07-03 21:46:51.406175,0.00476,0.00385,-1.00955,0.00105,0.00475,0.01347
2025-07-03 21:46:51.503778,0.01409,0.00533,-1.00752,0.00447,0.00156,0.00563
2025-07-03 21:46:51.607577,-0.12709,-0.35202,-0.99595,0.03395,0.02014,1.04388
2025-07-03 21:46:51.708753,0.01935,-0.02831,-1.02051,-0.01497,-0.04697,1.13817
2025-07-03 21:46:51.800347,-0.00032,-0.04996,-1.01197,-0.01371,-0.02446,1.32163
2025-07-03 21:46:51.903121,0.0141,-0.0103,-1.01438,-0.00727,-0.01287,1.3207
2025-07-03 21:46:52.007470,0.02427,-0.01148,-1.00406,0.00882,-0.00058,1.34607
2025-07-03 21:46:52.110632,0.0255,-0.01697,-1.0122,-0.03136,0.01155,1.40445
2025-07-03 21:46:52.205225,0.01758,-0.03428,-1.01035,-0.01703,-0.01811,1.43001
2025-07-03 21:46:52.307289,0.01649,-0.00203,-1.01333,-0.00683,0.02335,1.37373
2025-07-03 21:46:52.404515,0.03238,0.02595,-0.99478,-0.00927,0.02976,1.40019
2025-07-03 21:46:52.507039,0.03088,0.01594,-1.02023,0.01648,-0.0164,1.39749
2025-07-03 21:46:52.606765,0.02804,0.00742,-1.00193,0.00798,0.00814,1.36921
2025-07-03 21:46:52.707394,0.03641,0.04256,-1.04051,-0.0201,-0.00203,1.26903
2025-07-03 21:46:52.807764,0.00925,0.02803,-1.0003,0.00057,0.01414,0.41627
2025-07-03 21:46:52.908212,0.00127,0.0136,-1.00777,0.00651,0.00907,-0.03704
2025-07-03 21:46:53.000582,0.00427,0.00926,-1.00906,0.00282,0.00251,0.00219
2025-07-03 21:46:53.108115,-0.0012,0.00477,-1.00809,0.00096,-0.00154,0.00659
2025-07-03 21:46:53.200840,-0.00218,0.00429,-1.00837,0.00586,0.00166,0.0119
2025-07-03 21:46:53.308665,-0.00202,0.00371,-1.00899,0.00148,0.00422,0.00928
2025-07-03 21:46:53.401106,7e-05,0.00419,-1.01043,0.00333,0.00405,0.00588
2025-07-03 21:46:53.508166,-0.00104,0.00274,-1.00919,0.00515,0.00368,0.00976
2025-07-03 21:46:53.608725,-0.00111,0.00372,-1.00837,0.00227,0.00412,0.00934
2025-07-03 21:46:53.708581,-0.00034,0.00319,-1.01053,0.00284,0.00532,0.00925
