Timestamp,Acc_X (g),Acc_Y (g),Acc_Z (g),Gyro_X (deg/s),Gyro_Y (deg/s),Gyro_Z (deg/s)
2025-07-04 16:34:57.957514,0.0,0.0,0.0,0.0,0.0,0.0
2025-07-04 16:34:58.060191,0.08943,0.00328,-0.99921,-0.00113,0.0418,0.01078
2025-07-04 16:34:58.162487,0.27709,0.00475,-1.03321,-0.03905,-0.04039,0.04577
2025-07-04 16:34:58.257432,0.10447,-0.03251,-0.99263,-0.00083,-0.00833,-0.02318
2025-07-04 16:34:58.350369,-0.11762,0.04506,-1.02577,0.00475,0.0057,-0.01595
2025-07-04 16:34:58.456126,0.07801,-0.01595,-0.995,0.00405,0.01612,0.0512
2025-07-04 16:34:58.560636,0.0449,0.03331,-1.01032,0.03699,-0.0287,-0.01921
2025-07-04 16:34:58.659207,-0.09562,-0.01106,-1.02774,-0.02584,-0.03342,0.04533
2025-07-04 16:34:58.774943,0.10669,0.00506,-0.99822,-0.00623,0.04413,0.0551
2025-07-04 16:34:58.873628,-0.02614,0.02003,-1.00952,-0.0391,-0.01716,0.01739
2025-07-04 16:34:58.972989,-0.01849,0.02844,-0.97144,-0.00862,0.07237,-0.01549
2025-07-04 16:34:59.072814,-0.07772,0.01966,-0.97038,0.02958,0.01389,-0.01352
2025-07-04 16:34:59.173468,-0.12955,0.00026,-1.0152,0.00082,-0.01855,0.03223
2025-07-04 16:34:59.280170,0.03757,0.01791,-0.99769,0.01951,0.03778,0.04613
2025-07-04 16:34:59.368946,-0.10931,0.04545,-0.98635,0.04241,-0.00468,-0.0562
2025-07-04 16:34:59.478693,-0.07871,0.02809,-1.01261,-0.01552,0.02784,0.00253
2025-07-04 16:34:59.576576,-0.04589,0.02577,-1.00786,0.0015,-0.015,0.02244
2025-07-04 16:34:59.684643,-0.00309,-0.02085,-1.00435,-0.00455,0.00584,0.00694
2025-07-04 16:34:59.780241,0.06093,0.00037,-1.01238,0.00314,-0.01581,0.01256
2025-07-04 16:34:59.880272,-0.01291,0.00052,-1.00714,-0.0025,0.01066,0.02686
2025-07-04 16:34:59.973995,-0.00644,0.01862,-1.00681,0.01434,0.00941,-0.005
2025-07-04 16:35:00.079753,-0.00956,0.02824,-1.00419,0.00415,0.00357,0.00398
2025-07-04 16:35:00.164512,-0.0175,0.02241,-1.00842,0.0058,0.00149,0.00855
2025-07-04 16:35:00.277728,-0.00899,0.01144,-1.00622,0.00117,0.00215,0.01307
2025-07-04 16:35:00.366533,-0.00905,0.00998,-1.00775,0.00154,0.00218,0.01348
2025-07-04 16:35:00.479386,-0.00657,0.01078,-1.00724,-0.0006,0.00388,0.00912
2025-07-04 16:35:00.575119,-0.00556,0.01082,-1.0062,0.00079,0.00402,0.00954
2025-07-04 16:35:00.678155,-0.00058,0.01127,-1.00654,0.00166,0.00053,0.00774
2025-07-04 16:35:00.768650,0.00253,0.01018,-1.00768,0.00222,0.00404,0.01095
2025-07-04 16:35:00.878577,-0.01297,-0.03616,-0.99927,0.00688,0.0465,0.16954
2025-07-04 16:35:00.974824,0.02577,0.02669,-0.98022,-0.02468,-0.00986,1.12882
2025-07-04 16:35:01.079538,-0.00603,-0.00372,-0.98327,0.02007,0.00247,1.28019
2025-07-04 16:35:01.179808,0.01342,0.02679,-1.02042,0.004,-0.01385,1.28336
2025-07-04 16:35:01.273838,0.00642,0.01257,-1.0199,0.03526,-0.02779,1.31827
2025-07-04 16:35:01.382310,0.01923,0.00437,-1.03266,-0.01686,-0.02603,1.34727
2025-07-04 16:35:01.476550,0.00737,-0.01758,-1.01267,0.00422,0.00681,1.44517
2025-07-04 16:35:01.576736,0.01452,-0.03691,-0.95414,0.01587,0.04115,1.44439
2025-07-04 16:35:01.675005,0.03058,0.01472,-1.01789,-0.0312,-0.03176,1.38872
2025-07-04 16:35:01.777794,0.04404,0.04117,-0.99425,-0.01599,0.00546,1.36904
2025-07-04 16:35:01.878585,0.02979,0.01448,-0.99695,0.00597,0.01593,1.3957
2025-07-04 16:35:01.975063,0.01935,-0.03436,-0.99329,-0.00028,0.02059,1.42561
2025-07-04 16:35:02.076000,0.00983,0.05234,-0.99982,0.00622,0.02491,0.4441
2025-07-04 16:35:02.181261,0.02754,0.05469,-1.00703,-0.00052,0.006,0.03903
2025-07-04 16:35:02.282531,0.016,0.01635,-1.00843,0.00141,0.00399,0.00221
2025-07-04 16:35:02.384780,0.00911,0.00412,-1.00822,0.00191,0.00285,0.00942
2025-07-04 16:35:02.478127,0.00414,0.00649,-1.00634,0.00254,0.00591,0.01148
2025-07-04 16:35:02.578188,0.00621,0.00566,-1.00785,0.00101,0.00604,0.01015
2025-07-04 16:35:02.695197,0.0094,0.00574,-1.0062,-0.00111,0.00399,0.01141
2025-07-04 16:35:02.792455,0.00731,0.00651,-1.0061,-0.0006,0.00303,0.01228
2025-07-04 16:35:02.901134,0.00672,0.00556,-1.00584,0.0023,0.00345,0.01084
2025-07-04 16:35:02.995043,0.00826,0.00611,-1.00778,0.00176,0.0016,0.00851
2025-07-04 16:35:03.104740,0.00869,0.00666,-1.00605,-0.00012,0.0033,0.00966
2025-07-04 16:35:03.194820,0.02109,0.01136,-0.9935,0.00664,0.02992,-0.00054
2025-07-04 16:35:03.300183,0.28593,0.03526,-1.00357,-0.00453,-0.01198,0.03035
2025-07-04 16:35:03.408539,0.13304,-0.0599,-1.01682,0.03591,-0.02672,0.00353
2025-07-04 16:35:03.494996,-0.08499,0.02197,-0.99342,-0.01548,0.0086,0.01562
2025-07-04 16:35:03.624900,0.07306,0.02289,-1.01874,-0.00591,0.00505,0.00204
2025-07-04 16:35:03.695250,0.07452,-0.0258,-0.98351,-0.00533,-0.02775,0.05124
2025-07-04 16:35:03.802745,-0.08102,0.01631,-1.01369,-0.00264,-0.07114,0.00626
2025-07-04 16:35:03.902010,0.09792,0.00301,-1.05306,0.0232,-0.06206,0.02032
2025-07-04 16:35:04.001803,0.01247,-0.01682,-1.03277,-0.00919,-0.00957,0.06422
2025-07-04 16:35:04.095994,-0.03218,-0.01261,-0.99889,-0.00224,0.04155,0.01723
2025-07-04 16:35:04.202058,0.01177,0.01032,-0.99813,-0.04605,-0.04707,0.02714
2025-07-04 16:35:04.296143,-0.22431,0.00301,-1.06346,-0.01573,0.00622,-0.00078
2025-07-04 16:35:04.399990,0.03543,-0.0457,-0.98179,-0.01222,-0.02661,0.07726
2025-07-04 16:35:04.497596,-0.05598,0.02685,-1.01872,-0.01164,0.00173,-0.03939
2025-07-04 16:35:04.596994,-0.17502,0.01437,-1.00089,0.00627,-0.0186,-0.00674
2025-07-04 16:35:04.697296,0.00963,0.00128,-1.00156,0.0035,0.02236,0.00702
2025-07-04 16:35:04.797499,0.01271,-0.01013,-1.00415,0.00381,-0.01999,0.04195
2025-07-04 16:35:04.908749,-0.01754,-0.00736,-1.00754,0.00659,0.00489,0.03401
2025-07-04 16:35:05.010189,-0.02927,0.02676,-0.99565,0.02242,0.00167,-0.00726
2025-07-04 16:35:05.106478,-0.00692,0.01092,-1.00294,-0.00167,0.00315,0.00867
2025-07-04 16:35:05.219235,-0.0127,0.01374,-1.00677,-8e-05,0.01828,0.01571
2025-07-04 16:35:05.319615,-0.01327,0.00736,-1.00723,0.00151,0.00427,0.00993
2025-07-04 16:35:05.422487,-0.01914,0.00644,-1.00635,-0.00082,0.00421,0.01435
2025-07-04 16:35:05.521064,-0.02175,0.00793,-1.0055,-0.0004,0.0044,0.00343
2025-07-04 16:35:05.626733,-0.01962,0.00474,-1.00675,0.00038,0.00305,0.00756
2025-07-04 16:35:05.719006,-0.011,0.00606,-1.01047,-0.00055,0.00621,0.01202
2025-07-04 16:35:05.819918,-0.00295,0.00756,-1.00556,0.00203,0.00494,0.01006
2025-07-04 16:35:05.922167,0.09258,0.11787,-1.02715,-0.0263,0.01288,1.16842
2025-07-04 16:35:06.008189,0.01096,-0.06202,-1.01426,-0.02611,0.02094,1.23847
2025-07-04 16:35:06.120606,0.00818,0.0031,-1.0167,-0.02472,0.0328,1.2972
2025-07-04 16:35:06.228808,0.00282,0.00103,-1.00972,-0.03077,-0.00711,1.31387
2025-07-04 16:35:06.316345,0.01656,-0.03328,-1.00676,-0.03281,0.03456,1.3715
2025-07-04 16:35:06.416003,0.01689,-0.06042,-0.98883,-0.03587,0.0131,1.42216
2025-07-04 16:35:06.517836,0.01401,-0.02071,-0.99426,-0.0288,0.02247,1.36244
2025-07-04 16:35:06.619472,0.02311,0.00791,-0.99815,0.00257,-0.00955,1.42286
2025-07-04 16:35:06.715981,0.01754,0.00173,-1.01439,-0.00913,0.00718,1.38126
2025-07-04 16:35:06.821569,0.01083,-0.02982,-1.00294,-0.01441,-0.01769,1.44586
2025-07-04 16:35:06.919573,0.01615,-0.00793,-1.0078,0.00089,-0.03267,1.44796
2025-07-04 16:35:07.016262,0.0481,0.10007,-1.0129,-0.0222,0.00118,0.54583
2025-07-04 16:35:07.118889,0.01464,0.05849,-1.00547,0.00274,0.00573,0.14722
2025-07-04 16:35:07.214478,-0.00395,-0.00451,-1.00857,-0.00022,0.00458,0.01936
2025-07-04 16:35:07.311647,0.00626,0.01567,-1.0084,0.00303,0.00144,0.00638
2025-07-04 16:35:07.414842,0.00564,0.00848,-1.0076,0.00067,0.00546,0.00892
2025-07-04 16:35:07.512468,0.00444,0.01115,-1.00766,0.00253,0.00158,0.01149
2025-07-04 16:35:07.609012,0.00066,0.01044,-1.00696,3e-05,0.0008,0.01535
2025-07-04 16:35:07.740238,0.0032,0.00962,-1.00831,0.00045,0.00319,0.01166
2025-07-04 16:35:07.839480,0.00441,0.01126,-1.00615,0.00205,0.00054,0.01143
2025-07-04 16:35:07.941811,0.00067,0.01023,-1.00703,0.00023,0.00617,0.00832
2025-07-04 16:35:08.040844,0.00267,0.01059,-1.00793,0.00288,0.00152,0.01069
2025-07-04 16:35:08.136389,0.00556,0.00952,-1.0062,0.00328,0.00762,0.00594
2025-07-04 16:35:08.234473,0.24813,0.00902,-0.99326,0.02224,-0.00668,0.06818
2025-07-04 16:35:08.330243,0.17599,0.02573,-0.9734,-0.00824,-0.02477,-0.05035
2025-07-04 16:35:08.435287,-0.08092,-0.01924,-1.00097,-0.00174,-0.01791,0.00628
2025-07-04 16:35:08.525189,-0.00253,0.02256,-1.00017,0.01216,0.01645,-0.01817
2025-07-04 16:35:08.639975,0.15166,0.03673,-0.99098,0.02727,-0.02288,-0.022
2025-07-04 16:35:08.738775,-0.09346,0.01881,-0.99827,-0.00891,0.00771,0.00855
2025-07-04 16:35:08.842020,0.06663,0.02664,-1.00448,0.01138,0.05166,-0.00086
2025-07-04 16:35:08.940096,0.07454,0.01272,-0.9664,0.00325,0.00918,-0.01763
2025-07-04 16:35:09.039653,-0.08071,0.02063,-0.95135,0.03214,0.00585,0.0046
2025-07-04 16:35:09.129731,-0.03682,-0.01823,-0.96762,0.05166,-0.04404,0.03093
2025-07-04 16:35:09.241243,-0.13609,-0.00021,-1.01865,-0.00293,-0.00292,0.017
2025-07-04 16:35:09.336503,0.02667,0.04223,-0.99012,0.01479,0.01443,-0.04536
2025-07-04 16:35:09.436146,-0.05065,-0.0131,-1.00196,0.0063,-0.01149,0.07406
2025-07-04 16:35:09.529746,-0.12104,0.01456,-1.00983,0.01567,-0.00479,-0.00286
2025-07-04 16:35:09.630344,0.00156,0.01387,-1.02535,-0.02188,-0.01824,0.00718
2025-07-04 16:35:09.736247,-0.0498,0.00801,-1.02348,0.0025,0.02811,0.02548
2025-07-04 16:35:09.843313,0.09005,0.02647,-1.00623,0.00044,-0.00158,-0.00219
2025-07-04 16:35:09.940213,-0.01238,0.00887,-1.00643,0.0096,0.01118,0.01527
2025-07-04 16:35:10.037053,-0.01446,0.01677,-1.01242,-0.0159,-0.00401,0.02549
2025-07-04 16:35:10.133811,-0.00839,0.01221,-1.00615,0.00433,-0.0039,-0.00228
2025-07-04 16:35:10.237745,-0.01097,0.0141,-1.0057,0.00105,0.00236,0.00882
2025-07-04 16:35:10.340845,-0.01541,0.01034,-1.00771,0.00306,0.00451,0.00967
2025-07-04 16:35:10.441085,-0.0048,0.00823,-1.0054,0.00086,0.00435,0.00994
2025-07-04 16:35:10.540719,-0.00527,0.01222,-1.00617,0.00267,0.00316,0.00835
2025-07-04 16:35:10.639871,-0.01052,0.00957,-1.00815,-0.00099,0.001,0.00695
2025-07-04 16:35:10.740716,-0.00613,0.01123,-1.00701,-0.00118,0.00129,0.00794
2025-07-04 16:35:10.840693,0.00266,0.00978,-1.00841,0.00082,0.00025,0.0128
2025-07-04 16:35:10.939747,0.0041,0.01152,-1.0064,0.00127,0.00296,0.00856
2025-07-04 16:35:11.042077,0.05288,0.06604,-1.02063,0.02161,-0.01835,1.12228
2025-07-04 16:35:11.139925,0.00106,-0.03611,-1.01334,-0.02704,-0.00316,1.27754
2025-07-04 16:35:11.236687,0.01521,0.02559,-0.99335,-0.02902,0.01047,1.27648
2025-07-04 16:35:11.334029,0.01588,-0.01321,-1.01228,-0.02264,0.01769,1.35506
2025-07-04 16:35:11.441393,0.02004,-0.02608,-1.0106,-0.04139,0.00563,1.41327
2025-07-04 16:35:11.534801,0.02982,-0.00273,-1.01,-0.03129,-0.02433,1.40725
2025-07-04 16:35:11.637271,0.03605,0.02378,-1.01828,-0.02273,-0.00527,1.40487
2025-07-04 16:35:11.737151,0.02868,0.00556,-1.02143,-0.03011,0.0027,1.42193
2025-07-04 16:35:11.834808,0.00436,-0.00149,-1.02278,-0.00609,-0.04442,1.41877
2025-07-04 16:35:11.940854,0.02916,0.00706,-1.01475,-0.01368,-0.03438,1.4037
2025-07-04 16:35:12.035203,0.03215,-0.00921,-1.0189,-0.00453,-0.00399,1.41751
2025-07-04 16:35:12.134789,0.01983,0.05944,-1.0236,0.01219,-0.02411,0.54169
2025-07-04 16:35:12.234133,0.02467,0.08044,-1.00344,-0.00262,-0.00217,0.08326
2025-07-04 16:35:12.340130,0.0031,0.00019,-1.00606,-0.00296,0.00432,0.01784
2025-07-04 16:35:12.439544,0.01275,0.0068,-1.0071,0.0044,0.00546,0.01556
2025-07-04 16:35:12.528171,0.00588,0.00509,-1.00855,0.00236,0.00222,0.00968
2025-07-04 16:35:12.639578,0.00364,0.00594,-1.00795,0.00188,0.00308,0.00583
2025-07-04 16:35:12.729775,0.00817,0.00534,-1.00975,-4e-05,0.00385,0.00992
2025-07-04 16:35:12.843637,0.0076,0.00611,-1.01006,0.00124,0.00222,0.00866
2025-07-04 16:35:12.952259,0.0057,0.0069,-1.00701,-0.00074,0.00445,0.01025
2025-07-04 16:35:13.038083,0.00807,0.00571,-1.00811,0.00112,0.004,0.01224
2025-07-04 16:35:13.141881,0.00777,0.0054,-1.00778,-0.00187,0.0034,0.0134
2025-07-04 16:35:13.238376,0.06474,0.00598,-0.99904,0.00216,0.04704,-0.00953
2025-07-04 16:35:13.349417,0.28058,0.01919,-1.0237,-0.02053,0.00323,0.09812
2025-07-04 16:35:13.463743,0.13007,-0.0178,-1.02587,0.04173,-0.03414,-0.02307
2025-07-04 16:35:13.568012,-0.08437,0.01837,-0.95262,0.00195,-0.00445,-0.01438
2025-07-04 16:35:13.660682,0.07075,0.01672,-1.032,0.0068,-0.03487,0.00272
2025-07-04 16:35:13.750440,0.08098,-0.00297,-0.95601,0.01398,0.05123,0.0491
2025-07-04 16:35:13.857565,-0.08525,0.00729,-1.0132,0.01154,-0.02835,0.01654
2025-07-04 16:35:13.951997,0.07084,0.00808,-1.04082,-0.03266,-0.11345,0.02607
2025-07-04 16:35:14.048717,0.0126,0.00879,-1.0381,0.00296,-0.09062,0.02025
2025-07-04 16:35:14.159104,-0.03194,-0.02137,-1.00846,-0.02587,0.00665,0.01983
2025-07-04 16:35:14.264422,-0.03714,0.00399,-0.91219,-0.09629,0.14402,0.04282
2025-07-04 16:35:14.358681,-0.1714,0.02197,-1.06854,-0.04617,-0.01301,0.04617
2025-07-04 16:35:14.467896,0.0526,0.00263,-0.98258,0.01941,0.0256,0.00368
2025-07-04 16:35:14.561903,-0.11756,-0.00485,-1.00615,-0.02278,-0.01748,0.02907
2025-07-04 16:35:14.658647,-0.12077,0.03226,-0.99031,-0.00102,0.0201,-0.03999
2025-07-04 16:35:14.754136,-0.10657,0.01343,-0.99522,-0.00048,0.00235,0.01431
2025-07-04 16:35:14.847273,0.02579,0.01823,-1.00767,0.00133,0.01712,0.00729
2025-07-04 16:35:14.960211,-0.01575,0.00781,-0.99494,0.00844,-0.00143,0.01271
2025-07-04 16:35:15.058133,-0.01049,0.01172,-1.00503,0.00011,0.00494,0.01071
2025-07-04 16:35:15.155745,-0.00719,0.01721,-1.0067,0.00061,0.00056,0.01367
2025-07-04 16:35:15.257008,-0.01485,-0.00706,-1.01454,0.00049,0.00448,0.03039
2025-07-04 16:35:15.359427,-0.01543,0.00912,-1.00502,-0.00885,0.00133,0.02596
2025-07-04 16:35:15.449631,-0.01447,0.01041,-1.00569,-0.00246,0.00512,0.01294
2025-07-04 16:35:15.558068,-0.01902,0.00758,-1.00713,0.00088,0.00483,0.01181
2025-07-04 16:35:15.659917,-0.01942,0.00579,-1.0092,0.0023,0.00184,0.01294
2025-07-04 16:35:15.753280,-0.01685,0.00518,-1.00818,-3e-05,0.00186,0.01684
2025-07-04 16:35:15.860968,-0.01057,0.00858,-1.00786,-0.00014,0.00397,0.00721
2025-07-04 16:35:15.957775,-0.01103,-0.03382,-1.01166,0.00902,-0.01249,0.14124
2025-07-04 16:35:16.056276,0.03651,0.03399,-1.02564,-0.02033,-0.00418,1.14161
2025-07-04 16:35:16.154281,-0.01155,-0.05584,-1.0211,-0.07224,0.00251,1.31379
2025-07-04 16:35:16.265761,-0.00513,0.00061,-1.05517,-0.07809,0.03248,1.28109
2025-07-04 16:35:16.405769,0.00769,-0.00752,-1.05092,-0.0781,-0.02164,1.36513
2025-07-04 16:35:16.476578,0.00875,-0.03672,-0.98314,-0.04675,0.00482,1.39758
2025-07-04 16:35:16.581891,0.01586,-0.02792,-1.01973,-0.0475,0.00712,1.41753
2025-07-04 16:35:16.679336,-0.00457,-0.03657,-1.00407,-0.00467,-0.00918,1.43197
2025-07-04 16:35:16.782075,0.00743,-0.0189,-0.99804,-0.02492,-0.00688,1.43469
2025-07-04 16:35:16.868882,0.01496,-0.03304,-0.99469,0.00602,-0.01271,1.4723
2025-07-04 16:35:16.979535,0.01771,-0.01429,-1.0048,0.00644,-0.01073,1.41055
2025-07-04 16:35:17.074464,0.01512,-0.00502,-1.01085,0.0059,-0.02787,1.43971
2025-07-04 16:35:17.184071,0.02165,0.03421,-1.01124,0.00826,-0.0144,0.47318
2025-07-04 16:35:17.272872,0.02263,0.04602,-1.00772,0.01028,0.00176,0.15773
2025-07-04 16:35:17.370736,0.00202,0.01414,-1.00905,0.00473,0.00828,-0.00174
2025-07-04 16:35:17.480289,0.00097,0.00565,-1.00997,-0.00085,0.00461,0.01128
2025-07-04 16:35:17.579825,0.00473,0.01332,-1.00757,0.00019,0.00109,0.01022
2025-07-04 16:35:17.674933,0.00444,0.01075,-1.0084,0.00139,0.00526,0.01008
2025-07-04 16:35:17.780547,0.00263,0.01145,-1.00816,0.00272,0.0061,0.00983
2025-07-04 16:35:17.866075,0.00336,0.01191,-1.00749,0.00123,0.00353,0.0078
2025-07-04 16:35:17.974348,0.0046,0.01197,-1.00786,0.00124,0.00283,0.00827
2025-07-04 16:35:18.080864,0.00302,0.0112,-1.0088,-0.00071,0.00589,0.0088
